Folder: find_peak/data (part 3)

File: 0811B_2th_all.uxd
; (content of file \\Mai-b11e5c0abfd\d8\User\55373\0851539\0831\0811\0811B_2th_1.raw)
_FILEVERSION = 2
_SAMPLE =
_+SAMPLE =
_SITE = Taiwan
_USER = Administrator
_GONIOMETER_CODE = 20
_STAGE_CODE = 13
; Goniometer : D8 theta/2theta, stage : Unknown
_SAMPLE_CHANGER_CODE = 0
_ATTACHMENTS_CODE = 0
_GONIOMETER_RADIUS = 300
_FIXED_DIVSLIT = 0.6
_FIXED_SAMPLESLIT = 0
_FIXED_DETSLIT = 0.1
_MONOCHROMATOR = 0
; Incident beam monochromator : None
_THIN_FILM = N
_BETA_FILTER = N
_FIXED_ANTISLIT = 0.6
_ANALYZER_CODE = 0
; Received beam analyzer : None
_DATEMEASURED = "31-Aug-2021 19:57:53"
_WL_UNIT = A
_WL1 = 1.5406
_WL2 = 1.54439
_WL3 = 1.39222
_WLRATIO = 0.5
_ANODE = Cu

; Data for range 1
_DRIVE = COUPLED
_STEPTIME = 0.2
_STEPSIZE = 0.02
_STEPMODE = C
_START = 34
_THETA = 14.494
_2THETA = 34
_KHI = 0
_PHI = -83.5
_X = 0
_Y = 0
_Z = 0.0073
_DETECTOR = 1
; Detector type : Scintillation counter
_HV = 662
_GAIN = 80
_LLD = 0.545
_ULD = 1.917
_DETECTORSLIT = out
_AUX1 = 0
_AUX2 = 0
_AUX3 = 0
_TIMESTARTED = 17
_TEMP_RATE = -1
_TEMP_DELAY = -1
_KV = 40
_MA = 40
_RANGE_WL = 1.5406
_3DPLANE = 0
_V4_COUNTERS_MASK = 1
_V4_DRIVES_MASK = 0
_V4_ENCODERS_MASK = 0
_2THETACOUNTS = 1
; 2THETA  Cnt1_D1
  34.0000          6
  34.3000          1
  34.6000          5
  34.9000          3
  35.2000          4
  35.5000          1
  35.8000          4
  36.1000          4
  36.4000          1
  36.7000          3
  37.0000          5
  37.3000          3
  37.6000          2
  37.9000          7
  38.2000          5
  38.5000          4
  38.8000          7
  39.1000          6
  39.4000          6
  39.7000          4
  40.0000          6
  40.3000          6
  40.6000          5
  40.9000          3
  41.2000          2
  41.5000          4
  41.8000          6
  42.1000          4
  42.4000          6
  42.7000          4
  43.0000          3
  43.3000          2
  43.6000          2
  43.9000          4
  44.2000          6
  44.5000          7
  44.8000          5
  45.1000          3
  45.4000          2
  45.7000          3
  46.0000          3
  46.3000          6
  46.6000          4
  46.9000          3
  47.2000          4
  47.5000          4
  47.8000          4
  48.1000          3
  48.4000          4
  48.7000          0
  49.0000          3
  49.3000          2
  49.6000          7
  49.9000          1
  50.2000          3
  50.5000          4
  50.8000          1
  51.1000          2
  51.4000          6
  51.7000          2
  52.0000          1
  52.3000          4
  52.6000          1
  52.9000          3
  53.2000          0
  53.5000          4
  53.8000          5
  54.1000          0
  54.4000          2
  54.7000          1
  55.0000          3
  55.3000          0
  55.6000          4
  55.9000          3
  56.2000          0
  56.5000          3
  56.8000          0
  57.1000          2
  57.4000          4
  57.7000          0
  58.0000          1
  58.3000          4
  58.6000          5
  58.9000          3
  59.2000          1
  59.5000          1
  59.8000          2
  60.1000          4
  60.4000          2
  60.7000          4
  61.0000          7
  61.3000          2
  61.6000          3
  61.9000          1
  62.2000          5
  62.5000          2
  62.8000          2
  63.1000          4
  63.4000          2
  63.7000          2
  64.0000          3
  64.3000          3
  64.6000          2
  64.9000          5
  65.2000          4
  65.5000          2
  65.8000          3
  66.1000          3
  66.4000          4
  66.7000          2
  67.0000          2
  67.3000          2
  67.6000          3
  67.9000          2
  68.2000          3
  68.5000          3
  68.8000          1
  69.1000          2
  69.4000          0
  69.7000          1
  70.0000          6
  70.3000          0
  70.6000          1
  70.9000          3
  71.2000          3
  71.5000          3
  71.8000          1
  72.1000          0
  72.4000          4
  72.7000          0
  73.0000          6
  73.3000          2
  73.6000          1
  73.9000          2
  74.2000          2
  74.5000          2
  74.8000          1
  75.1000          2
  75.4000          2
  75.7000          2
  76.0000          1
  76.3000          3
  76.6000          1
  76.9000          5
  77.2000          5
  77.5000          2
  77.8000          5
  78.1000          5
  78.4000          2
  78.7000          3
  79.0000          3
  79.3000          3
  79.6000          6
  79.9000          3
  80.2000          1
  80.5000          3
  80.8000          2
  81.1000          1
  81.4000          2
  81.7000          2
  82.0000          2
  82.3000          1
  82.6000          0
  82.9000          2
  83.2000          4
  83.5000          2
  83.8000          0
  84.1000          4
  84.4000          2
  84.7000          4
  85.0000          4
  85.3000          2
  85.6000          3
  85.9000          3
  86.2000          3
  86.5000          2
  86.8000          2
  87.1000          0
  87.4000          2
  87.7000          2
  88.0000          1
  88.3000          0
  88.6000          2
  88.9000          2
  89.2000          2
  89.5000          1
  89.8000          3
  90.1000          2
  90.4000          3
  90.7000          3
  91.0000          0
  91.3000          0
  91.6000          3
  91.9000          2
  92.2000          2
  92.5000          2
  92.8000          0
  93.1000          5
  93.4000          2
  93.7000          1
  94.0000          2
  94.3000          1
  94.6000          2
  94.9000          1
  95.2000          1
  95.5000          2
  95.8000          3
  96.1000          1
  96.4000          3
  96.7000          3
  97.0000          3
  97.3000          3
  97.6000          2
  97.9000          2
  98.2000          0
  98.5000          2
  98.8000          2
  99.1000          2
  99.4000          1
  99.7000          2
 100.0000          2
 100.3000          1
 100.6000          1
 100.9000          1
 101.2000          1
 101.5000          5
 101.8000          3
 102.1000          0
 102.4000          1
 102.7000          4
 103.0000          1
 103.3000          2
 103.6000          4
 103.9000          1
 104.2000          2
 104.5000          1
 104.8000          1
 105.1000          4
 105.4000          4
 105.7000          1
 106.0000          2
 106.3000          4
 106.6000          3
 106.9000          0
 107.2000          4
 107.5000          2
 107.8000          2
 108.1000          3
 108.4000          5
 108.7000          4
 109.0000          3
 109.3000          1
 109.6000          3
 109.9000          5
 110.2000          1
 110.5000          3
 110.8000          1
 111.1000          2
 111.4000          7
 111.7000          4
 112.0000          5
 112.3000          3
 112.6000          5
 112.9000          3
 113.2000          4
 113.5000          5
 113.8000          8
 114.1000          5
 114.4000         10
 114.7000         14
 115.0000          6
 115.3000         10
 115.6000         17
 115.9000         15
 116.2000         25
 116.5000         23
 116.8000         23
 117.1000         29
 117.4000         25
 117.7000         48
 118.0000         72
 118.3000         97
 118.6000        306
 118.9000        339
 119.2000       1554
 119.5000      17976
 119.8000       4731
 120.1000       1886
 120.4000        329
 120.7000        158
 121.0000        115
 121.3000         98
 121.6000         74
 121.9000         57
 122.0000         70

File: 0812B_2th_all.uxd
; (content of file \\Mai-b11e5c0abfd\d8\User\55373\0851539\0901\0812B_2th_all.raw)
_FILEVERSION = 2
_SAMPLE =
_+SAMPLE =
_SITE = Taiwan
_USER = Administrator
_GONIOMETER_CODE = 20
_STAGE_CODE = 13
; Goniometer : D8 theta/2theta, stage : Unknown
_SAMPLE_CHANGER_CODE = 0
_ATTACHMENTS_CODE = 0
_GONIOMETER_RADIUS = 300
_FIXED_DIVSLIT = 0.6
_FIXED_SAMPLESLIT = 0
_FIXED_DETSLIT = 0.1
_MONOCHROMATOR = 0
; Incident beam monochromator : None
_THIN_FILM = N
_BETA_FILTER = N
_FIXED_ANTISLIT = 0.6
_ANALYZER_CODE = 0
; Received beam analyzer : None
_DATEMEASURED = "01-Sep-2021 12:12:13"
_WL_UNIT = A
_WL1 = 1.5406
_WL2 = 1.54439
_WL3 = 1.39222
_WLRATIO = 0.5
_ANODE = Cu

; Data for range 1
_DRIVE = COUPLED
_STEPTIME = 0.3
_STEPSIZE = 0.02
_STEPMODE = C
_START = 34
_THETA = 16.78
_2THETA = 34
_KHI = 0
_PHI = 8
_X = 0
_Y = 0
_Z = -0.161
_DETECTOR = 1
; Detector type : Scintillation counter
_HV = 662
_GAIN = 80
_LLD = 0.545
_ULD = 1.917
_DETECTORSLIT = out
_AUX1 = 0
_AUX2 = 0
_AUX3 = 0
_TIMESTARTED = 16
_TEMP_RATE = -1
_TEMP_DELAY = -1
_KV = 40
_MA = 40
_RANGE_WL = 1.5406
_3DPLANE = 0
_V4_COUNTERS_MASK = 1
_V4_DRIVES_MASK = 0
_V4_ENCODERS_MASK = 0
_2THETACOUNTS = 1
; 2THETA  Cnt1_D1
  34.0000          8
  34.3000          4
  34.6000          5
  34.9000          8
  35.2000          5
  35.5000          3
  35.8000          8
  36.1000          3
  36.4000          2
  36.7000          3
  37.0000          4
  37.3000          6
  37.6000          3
  37.9000          3
  38.2000         32
  38.5000          9
  38.8000          2
  39.1000         10
  39.4000          3
  39.7000          6
  40.0000          5
  40.3000          7
  40.6000          6
  40.9000          4
  41.2000          6
  41.5000          5
  41.8000          5
  42.1000          5
  42.4000          2
  42.7000          0
  43.0000          5
  43.3000          6
  43.6000          6
  43.9000          4
  44.2000          6
  44.5000         13
  44.8000          8
  45.1000          4
  45.4000          2
  45.7000          4
  46.0000          5
  46.3000          6
  46.6000          5
  46.9000          2
  47.2000          4
  47.5000          4
  47.8000          4
  48.1000          6
  48.4000          3
  48.7000          1
  49.0000          3
  49.3000          2
  49.6000          3
  49.9000          3
  50.2000          6
  50.5000          8
  50.8000          6
  51.1000          3
  51.4000          6
  51.7000          6
  52.0000          1
  52.3000          4
  52.6000          2
  52.9000          5
  53.2000          3
  53.5000          2
  53.8000          6
  54.1000          7
  54.4000          4
  54.7000          4
  55.0000          5
  55.3000          3
  55.6000          3
  55.9000          3
  56.2000          6
  56.5000          3
  56.8000          2
  57.1000          3
  57.4000          2
  57.7000          5
  58.0000          2
  58.3000          2
  58.6000          1
  58.9000          5
  59.2000          2
  59.5000          4
  59.8000          3
  60.1000          3
  60.4000          5
  60.7000          3
  61.0000          5
  61.3000          3
  61.6000          4
  61.9000          1
  62.2000          1
  62.5000          5
  62.8000          4
  63.1000          1
  63.4000          2
  63.7000          1
  64.0000          8
  64.3000          3
  64.6000         10
  64.9000          7
  65.2000         11
  65.5000          1
  65.8000          1
  66.1000          4
  66.4000          3
  66.7000          5
  67.0000          2
  67.3000          6
  67.6000          4
  67.9000          3
  68.2000          5
  68.5000          5
  68.8000          3
  69.1000          3
  69.4000          3
  69.7000          6
  70.0000          1
  70.3000          2
  70.6000          2
  70.9000          3
  71.2000          2
  71.5000          0
  71.8000          2
  72.1000          2
  72.4000          4
  72.7000          2
  73.0000          4
  73.3000          3
  73.6000          5
  73.9000          3
  74.2000          4
  74.5000          7
  74.8000          2
  75.1000          0
  75.4000          0
  75.7000          5
  76.0000          3
  76.3000          2
  76.6000          1
  76.9000          4
  77.2000          2
  77.5000          7
  77.8000          8
  78.1000          3
  78.4000          3
  78.7000          3
  79.0000          2
  79.3000          4
  79.6000          2
  79.9000          4
  80.2000          1
  80.5000          4
  80.8000          6
  81.1000          2
  81.4000          4
  81.7000          5
  82.0000          1
  82.3000          2
  82.6000          1
  82.9000          5
  83.2000          2
  83.5000          2
  83.8000          7
  84.1000          3
  84.4000          4
  84.7000          4
  85.0000          3
  85.3000          1
  85.6000          7
  85.9000          2
  86.2000          1
  86.5000          6
  86.8000          7
  87.1000          1
  87.4000          0
  87.7000          2
  88.0000          2
  88.3000          2
  88.6000          6
  88.9000          4
  89.2000          3
  89.5000          6
  89.8000          3
  90.1000          4
  90.4000          5
  90.7000          4
  91.0000          2
  91.3000          3
  91.6000          1
  91.9000          5
  92.2000          7
  92.5000          3
  92.8000          2
  93.1000          5
  93.4000          4
  93.7000          2
  94.0000          2
  94.3000          2
  94.6000          6
  94.9000          0
  95.2000          1
  95.5000          7
  95.8000          2
  96.1000          2
  96.4000          2
  96.7000          5
  97.0000          4
  97.3000          2
  97.6000          1
  97.9000          3
  98.2000          7
  98.5000          2
  98.8000          5
  99.1000          3
  99.4000          4
  99.7000          4
 100.0000          3
 100.3000          5
 100.6000          5
 100.9000          4
 101.2000          2
 101.5000          2
 101.8000          5
 102.1000          2
 102.4000          4
 102.7000         16
 103.0000          4
 103.3000          2
 103.6000          4
 103.9000          6
 104.2000          5
 104.5000          4
 104.8000          2
 105.1000          5
 105.4000          1
 105.7000          3
 106.0000          4
 106.3000          6
 106.6000          5
 106.9000          4
 107.2000          2
 107.5000          8
 107.8000          3
 108.1000          1
 108.4000          5
 108.7000          2
 109.0000          4
 109.3000          8
 109.6000          8
 109.9000          6
 110.2000          3
 110.5000          8
 110.8000          5
 111.1000          6
 111.4000          8
 111.7000          9
 112.0000          8
 112.3000          4
 112.6000          2
 112.9000         10
 113.2000         27
 113.5000         20
 113.8000         45
 114.1000         48
 114.4000         60
 114.7000         61
 115.0000         61
 115.3000         79
 115.6000         83
 115.9000         77
 116.2000        105
 116.5000        110
 116.8000        148
 117.1000        150
 117.4000        167
 117.7000        226
 118.0000        282
 118.3000        453
 118.6000       1410
 118.9000       1552
 119.2000       5047
 119.5000     190091
 119.8000      11804
 120.1000      18733
 120.4000       1838
 120.7000        885
 121.0000        533
 121.3000        373
 121.6000        330
 121.9000        273
 122.0000        235

File: 0812B_RC_13_23.uxd
; (content of file \\Mai-b11e5c0abfd\d8\User\55373\0851539\0901\0812B_RC_13_23.raw)
_FILEVERSION = 2
_SAMPLE =
_+SAMPLE =
_SITE = Taiwan
_USER = Administrator
_GONIOMETER_CODE = 20
_STAGE_CODE = 13
; Goniometer : D8 theta/2theta, stage : Unknown
_SAMPLE_CHANGER_CODE = 0
_ATTACHMENTS_CODE = 0
_GONIOMETER_RADIUS = 300
_FIXED_DIVSLIT = 0.6
_FIXED_SAMPLESLIT = 0
_FIXED_DETSLIT = 0.1
_MONOCHROMATOR = 0
; Incident beam monochromator : None
_THIN_FILM = N
_BETA_FILTER = N
_FIXED_ANTISLIT = 0.6
_ANALYZER_CODE = 0
; Received beam analyzer : None
_DATEMEASURED = "01-Sep-2021 12:45:45"
_WL_UNIT = A
_WL1 = 1.5406
_WL2 = 1.54439
_WL3 = 1.39222
_WLRATIO = 0.5
_ANODE = Cu

; Data for range 1
_DRIVE = THETA
_STEPTIME = 0.3
_STEPSIZE = 0.02
_STEPMODE = S
_START = 13
_THETA = 13
_2THETA = 38.2
_KHI = 0
_PHI = 8
_X = 0
_Y = 0
_Z = -0.161
_DETECTOR = 1
; Detector type : Scintillation counter
_HV = 662
_GAIN = 80
_LLD = 0.545
_ULD = 1.917
_DETECTORSLIT = out
_AUX1 = 0
_AUX2 = 0
_AUX3 = 0
_TIMESTARTED = 18
_TEMP_RATE = -1
_TEMP_DELAY = -1
_KV = 40
_MA = 40
_RANGE_WL = 1.5406
_3DPLANE = 0
_V4_COUNTERS_MASK = 1
_V4_DRIVES_MASK = 0
_V4_ENCODERS_MASK = 0
_2THETACOUNTS = 1
; THETA  Cnt1_D1
  13.0000         22
  13.0400         23
  13.0800         20
  13.1200         20
  13.1600         18
  13.2000         21
  13.2400         22
  13.2800         29
  13.3200         11
  13.3600         18
  13.4000         18
  13.4400         21
  13.4800          8
  13.5200         18
  13.5600         19
  13.6000         23
  13.6400         18
  13.6800         24
  13.7200         20
  13.7600         23
  13.8000         26
  13.8400         24
  13.8800         24
  13.9200         29
  13.9600         26
  14.0000         24
  14.0400         26
  14.0800         16
  14.1200         17
  14.1600         20
  14.2000         24
  14.2400         18
  14.2800         20
  14.3200         21
  14.3600         23
  14.4000         29
  14.4400         18
  14.4800         24
  14.5200         15
  14.5600         16
  14.6000         24
  14.6400         21
  14.6800         22
  14.7200         27
  14.7600         19
  14.8000         21
  14.8400         28
  14.8800         20
  14.9200         27
  14.9600         20
  15.0000         17
  15.0400         17
  15.0800         22
  15.1200         23
  15.1600         22
  15.2000         23
  15.2400         19
  15.2800         17
  15.3200         28
  15.3600         17
  15.4000         24
  15.4400         21
  15.4800         26
  15.5200         27
  15.5600         24
  15.6000         23
  15.6400         32
  15.6800         20
  15.7200         18
  15.7600         31
  15.8000         23
  15.8400         16
  15.8800         23
  15.9200         27
  15.9600         32
  16.0000         26
  16.0400         21
  16.0800         27
  16.1200         23
  16.1600         19
  16.2000         19
  16.2400         22
  16.2800         20
  16.3200         26
  16.3600         23
  16.4000         23
  16.4400         23
  16.4800         24
  16.5200         22
  16.5600         32
  16.6000         16
  16.6400         23
  16.6800         24
  16.7200         13
  16.7600         18
  16.8000         23
  16.8400         21
  16.8800         26
  16.9200         24
  16.9600         26
  17.0000         25
  17.0400         17
  17.0800         34
  17.1200         24
  17.1600         19
  17.2000         17
  17.2400         24
  17.2800         18
  17.3200         17
  17.3600         17
  17.4000         22
  17.4400         23
  17.4800         18
  17.5200         26
  17.5600         29
  17.6000         17
  17.6400         24
  17.6800         34
  17.7200         21
  17.7600         17
  17.8000         19
  17.8400         20
  17.8800         24
  17.9200         19
  17.9600         18
  18.0000         28
  18.0400         17
  18.0800         28
  18.1200         18
  18.1600         25
  18.2000         26
  18.2400         24
  18.2800         24
  18.3200         19
  18.3600         20
  18.4000         23
  18.4400         25
  18.4800         23
  18.5200         24
  18.5600         24
  18.6000         20
  18.6400         20
  18.6800         19
  18.7200         24
  18.7600         26
  18.8000         24
  18.8400         24
  18.8800         18
  18.9200         20
  18.9600         18
  19.0000         25
  19.0400         22
  19.0800         27
  19.1200         22
  19.1600         17
  19.2000         22
  19.2400         15
  19.2800         28
  19.3200         11
  19.3600         18
  19.4000         24
  19.4400         16
  19.4800         14
  19.5200         27
  19.5600         22
  19.6000         23
  19.6400         16
  19.6800         22
  19.7200         14
  19.7600         18
  19.8000         22
  19.8400         18
  19.8800         20
  19.9200         16
  19.9600         18
  20.0000         18
  20.0400         29
  20.0800         26
  20.1200         20
  20.1600         25
  20.2000         23
  20.2400         19
  20.2800         29
  20.3200         19
  20.3600         23
  20.4000         21
  20.4400         12
  20.4800         33
  20.5200         24
  20.5600         22
  20.6000         30
  20.6400         17
  20.6800         24
  20.7200         28
  20.7600         22
  20.8000         21
  20.8400         29
  20.8800         23
  20.9200         19
  20.9600         25
  21.0000         26
  21.0400         24
  21.0800         21
  21.1200         11
  21.1600         26
  21.2000         25
  21.2400         22
  21.2800         21
  21.3200         25
  21.3600         21
  21.4000         23
  21.4400         20
  21.4800         20
  21.5200         22
  21.5600         17
  21.6000         23
  21.6400         25
  21.6800         24
  21.7200         29
  21.7600         24
  21.8000         17
  21.8400         16
  21.8800         18
  21.9200         17
  21.9600         12
  22.0000         16
  22.0400         20
  22.0800         19
  22.1200         24
  22.1600         19
  22.2000         16
  22.2400         25
  22.2800         16
  22.3200         21
  22.3600         23
  22.4000         31
  22.4400         19
  22.4800         27
  22.5200         25
  22.5600         32
  22.6000         21
  22.6400         21
  22.6800         19
  22.7200         19
  22.7600         16
  22.8000         15
  22.8400         15
  22.8800         20
  22.9200         27
  22.9600         19
  23.0000         15