Folder: find_peak/data

Note: readme.md
## Example of Lorentzian curve fitting for XRD data analysis.

Fitting the XRD curve with a 4-parameter Lorentzian function:

<img src="http://latex.codecogs.com/gif.latex?\ f(x) = A\left[\frac{\gamma^{2}}{(x-x_{0})^{2}+\gamma^2}\right] +B"/>

Ref.
[Weisstein, Eric W.](https://mathworld.wolfram.com/about/author.html) "Lorentzian Function." From [*MathWorld*](https://mathworld.wolfram.com/)--A Wolfram Web Resource.

File: 0810A_2th_all.uxd
; (content of file \\Mai-b11e5c0abfd\d8\User\55373\0851539\0831\0810\0810A_2th_1.raw)
_FILEVERSION = 2
_SAMPLE =
_+SAMPLE =
_SITE = Taiwan
_USER = Administrator
_GONIOMETER_CODE = 20
_STAGE_CODE = 13
; Goniometer : D8 theta/2theta, stage : Unknown
_SAMPLE_CHANGER_CODE = 0
_ATTACHMENTS_CODE = 0
_GONIOMETER_RADIUS = 300
_FIXED_DIVSLIT = 0.6
_FIXED_SAMPLESLIT = 0
_FIXED_DETSLIT = 0.1
_MONOCHROMATOR = 0
; Incident beam monochromator : None
_THIN_FILM = N
_BETA_FILTER = N
_FIXED_ANTISLIT = 0.6
_ANALYZER_CODE = 0
; Received beam analyzer : None
_DATEMEASURED = "31-Aug-2021 18:20:17"
_WL_UNIT = A
_WL1 = 1.5406
_WL2 = 1.54439
_WL3 = 1.39222
_WLRATIO = 0.5
_ANODE = Cu

; Data for range 1
_DRIVE = COUPLED
_STEPTIME = 0.2
_STEPSIZE = 0.02
_STEPMODE = C
_START = 35
_THETA = 16.425
_2THETA = 35
_KHI = 0
_PHI = -178
_X = 0
_Y = 0
_Z = -0.1364
_DETECTOR = 1
; Detector type : Scintillation counter
_HV = 662
_GAIN = 80
_LLD = 0.545
_ULD = 1.917
_DETECTORSLIT = out
_AUX1 = 0
_AUX2 = 0
_AUX3 = 0
_TIMESTARTED = 16
_TEMP_RATE = -1
_TEMP_DELAY = -1
_KV = 40
_MA = 40
_RANGE_WL = 1.5406
_3DPLANE = 0
_V4_COUNTERS_MASK = 1
_V4_DRIVES_MASK = 0
_V4_ENCODERS_MASK = 0
_2THETACOUNTS = 1
; 2THETA  Cnt1_D1
  35.0000          3
  35.3000          5
  35.6000          3
  35.9000          5
  36.2000          5
  36.5000          2
  36.8000          5
  37.1000          6
  37.4000          4
  37.7000          4
  38.0000          6
  38.3000         21
  38.6000          4
  38.9000          2
  39.2000          3
  39.5000          3
  39.8000          3
  40.1000          6
  40.4000          2
  40.7000          4
  41.0000          2
  41.3000          1
  41.6000          3
  41.9000          3
  42.2000          3
  42.5000          1
  42.8000          1
  43.1000          1
  43.4000          3
  43.7000          4
  44.0000          5
  44.3000          2
  44.6000          3
  44.9000          2
  45.2000          4
  45.5000          3
  45.8000          3
  46.1000          7
  46.4000          0
  46.7000          2
  47.0000          0
  47.3000          2
  47.6000          3
  47.9000          3
  48.2000          1
  48.5000          2
  48.8000          1
  49.1000          3
  49.4000          0
  49.7000          2
  50.0000          1
  50.3000          5
  50.6000          2
  50.9000          7
  51.2000          2
  51.5000          0
  51.8000          3
  52.1000          3
  52.4000          2
  52.7000          0
  53.0000          1
  53.3000          1
  53.6000          1
  53.9000          0
  54.2000          2
  54.5000          2
  54.8000          2
  55.1000          0
  55.4000          9
  55.7000          1
  56.0000          1
  56.3000          2
  56.6000          2
  56.9000          1
  57.2000          2
  57.5000          2
  57.8000          2
  58.1000          3
  58.4000          1
  58.7000          1
  59.0000          3
  59.3000          3
  59.6000          3
  59.9000          1
  60.2000          0
  60.5000          3
  60.8000          4
  61.1000          1
  61.4000          3
  61.7000          4
  62.0000          1
  62.3000          0
  62.6000          1
  62.9000          2
  63.2000          3
  63.5000          3
  63.8000          2
  64.1000          6
  64.4000          3
  64.7000          2
  65.0000          4
  65.3000          4
  65.6000          2
  65.9000          1
  66.2000          4
  66.5000          3
  66.8000          2
  67.1000          4
  67.4000          3
  67.7000          1
  68.0000          3
  68.3000          1
  68.6000          0
  68.9000          4
  69.2000          5
  69.5000          7
  69.8000          3
  70.1000          1
  70.4000          3
  70.7000          0
  71.0000          2
  71.3000          3
  71.6000          1
  71.9000          3
  72.2000          2
  72.5000          1
  72.8000          2
  73.1000          2
  73.4000          0
  73.7000          1
  74.0000          4
  74.3000          2
  74.6000          1
  74.9000          1
  75.2000          2
  75.5000          0
  75.8000          1
  76.1000          1
  76.4000          1
  76.7000          1
  77.0000          5
  77.3000          2
  77.6000          1
  77.9000          7
  78.2000          5
  78.5000          4
  78.8000          2
  79.1000          2
  79.4000          2
  79.7000          5
  80.0000          6
  80.3000          2
  80.6000          5
  80.9000          2
  81.2000          2
  81.5000          3
  81.8000          1
  82.1000          3
  82.4000          2
  82.7000          3
  83.0000          2
  83.3000          0
  83.6000          2
  83.9000          1
  84.2000          3
  84.5000          4
  84.8000          2
  85.1000          1
  85.4000          3
  85.7000          1
  86.0000          5
  86.3000          0
  86.6000          1
  86.9000          0
  87.2000          2
  87.5000          2
  87.8000          0
  88.1000          3
  88.4000          2
  88.7000          1
  89.0000          2
  89.3000          1
  89.6000          0
  89.9000          3
  90.2000          1
  90.5000          3
  90.8000          5
  91.1000          3
  91.4000          4
  91.7000          0
  92.0000          0
  92.3000          2
  92.6000          0
  92.9000          2
  93.2000          3
  93.5000          1
  93.8000          3
  94.1000          0
  94.4000          2
  94.7000          2
  95.0000          4
  95.3000          1
  95.6000          1
  95.9000          2
  96.2000          3
  96.5000          1
  96.8000          1
  97.1000          1
  97.4000          1
  97.7000          2
  98.0000          5
  98.3000          1
  98.6000          0
  98.9000          3
  99.2000          4
  99.5000          2
  99.8000          6
 100.1000          4
 100.4000          3
 100.7000          1
 101.0000          4
 101.3000          0
 101.6000          0
 101.9000          3
 102.2000          1
 102.5000          2
 102.8000          6
 103.1000          2
 103.4000          1
 103.7000          0
 104.0000          5
 104.3000          3
 104.6000          3
 104.9000          4
 105.2000          1
 105.5000          2
 105.8000          1
 106.1000          0
 106.4000          3
 106.7000          7
 107.0000          4
 107.3000          3
 107.6000          2
 107.9000          7
 108.2000          1
 108.5000          5
 108.8000          5
 109.1000          4
 109.4000          3
 109.7000          6
 110.0000          5
 110.3000          1
 110.6000          3
 110.9000          4
 111.2000          9
 111.5000          1
 111.8000          7
 112.1000          3
 112.4000          5
 112.7000          5
 113.0000          5
 113.3000         22
 113.6000         25
 113.9000         32
 114.2000         34
 114.5000         39
 114.8000         44
 115.1000         45
 115.4000         64
 115.7000         56
 116.0000         71
 116.3000         86
 116.6000         93
 116.9000        106
 117.2000        108
 117.5000        137
 117.8000        165
 118.1000        228
 118.4000        484
 118.7000       1282
 119.0000       1411
 119.3000       8071
 119.6000      40485
 119.9000      28207
 120.2000       4870
 120.5000       1138
 120.8000        592
 121.1000        383
 121.4000        248
 121.7000        247
 122.0000        198

File: 0810A_RC_15_23.uxd
; (content of file \\Mai-b11e5c0abfd\d8\User\55373\0851539\0831\0810\0810A_RC_38_1.raw)
_FILEVERSION = 2
_SAMPLE =
_+SAMPLE =
_SITE = Taiwan
_USER = Administrator
_GONIOMETER_CODE = 20
_STAGE_CODE = 13
; Goniometer : D8 theta/2theta, stage : Unknown
_SAMPLE_CHANGER_CODE = 0
_ATTACHMENTS_CODE = 0
_GONIOMETER_RADIUS = 300
_FIXED_DIVSLIT = 0.6
_FIXED_SAMPLESLIT = 0
_FIXED_DETSLIT = 0.1
_MONOCHROMATOR = 0
; Incident beam monochromator : None
_THIN_FILM = N
_BETA_FILTER = N
_FIXED_ANTISLIT = 0.6
_ANALYZER_CODE = 0
; Received beam analyzer : None
_DATEMEASURED = "31-Aug-2021 18:36:26"
_WL_UNIT = A
_WL1 = 1.5406
_WL2 = 1.54439
_WL3 = 1.39222
_WLRATIO = 0.5
_ANODE = Cu

; Data for range 1
_DRIVE = THETA
_STEPTIME = 0.2
_STEPSIZE = 0.02
_STEPMODE = S
_START = 14
_THETA = 14
_2THETA = 38.297
_KHI = 0
_PHI = -178
_X = 0
_Y = 0
_Z = -0.1364
_DETECTOR = 1
; Detector type : Scintillation counter
_HV = 662
_GAIN = 80
_LLD = 0.545
_ULD = 1.917
_DETECTORSLIT = out
_AUX1 = 0
_AUX2 = 0
_AUX3 = 0
_TIMESTARTED = 17
_TEMP_RATE = -1
_TEMP_DELAY = -1
_KV = 40
_MA = 40
_RANGE_WL = 1.5406
_3DPLANE = 0
_V4_COUNTERS_MASK = 1
_V4_DRIVES_MASK = 0
_V4_ENCODERS_MASK = 0
_2THETACOUNTS = 1
; THETA  Cnt1_D1
  14.0000         16
  14.0400         16
  14.0800         14
  14.1200          6
  14.1600          8
  14.2000         11
  14.2400         14
  14.2800         14
  14.3200         18
  14.3600         13
  14.4000         11
  14.4400         15
  14.4800         13
  14.5200         11
  14.5600         17
  14.6000          8
  14.6400         11
  14.6800         19
  14.7200         10
  14.7600         16
  14.8000         13
  14.8400         12
  14.8800          6
  14.9200         16
  14.9600          8
  15.0000         17
  15.0400         14
  15.0800          6
  15.1200         11
  15.1600          9
  15.2000          8
  15.2400         14
  15.2800         11
  15.3200         16
  15.3600         19
  15.4000          9
  15.4400         16
  15.4800         17
  15.5200         12
  15.5600         12
  15.6000          9
  15.6400         16
  15.6800          9
  15.7200          8
  15.7600          6
  15.8000         10
  15.8400         11
  15.8800         11
  15.9200          7
  15.9600         12
  16.0000         12
  16.0400         16
  16.0800         16
  16.1200         15
  16.1600         11
  16.2000          9
  16.2400         11
  16.2800         16
  16.3200          7
  16.3600          9
  16.4000         14
  16.4400          8
  16.4800         18
  16.5200         12
  16.5600         13
  16.6000         11
  16.6400         14
  16.6800          8
  16.7200         10
  16.7600         11
  16.8000         14
  16.8400          9
  16.8800          8
  16.9200         16
  16.9600         12
  17.0000         12
  17.0400         14
  17.0800         10
  17.1200         12
  17.1600         10
  17.2000         13
  17.2400         16
  17.2800         15
  17.3200          8
  17.3600         14
  17.4000         12
  17.4400          6
  17.4800         13
  17.5200         13
  17.5600         17
  17.6000         15
  17.6400          8
  17.6800         13
  17.7200         14
  17.7600          9
  17.8000         10
  17.8400          6
  17.8800         13
  17.9200         11
  17.9600         10
  18.0000         12
  18.0400         10
  18.0800         11
  18.1200         14
  18.1600          9
  18.2000          7
  18.2400          5
  18.2800         15
  18.3200         10
  18.3600         17
  18.4000         12
  18.4400         12
  18.4800         12
  18.5200          9
  18.5600         22
  18.6000         10
  18.6400         15
  18.6800         12
  18.7200         18
  18.7600         19
  18.8000          8
  18.8400         10
  18.8800         12
  18.9200         15
  18.9600         15
  19.0000          7
  19.0400         10
  19.0800         10
  19.1200          9
  19.1600         17
  19.2000         16
  19.2400         11
  19.2800         17
  19.3200         13
  19.3600          5
  19.4000         11
  19.4400          4
  19.4800         12
  19.5200         16
  19.5600         11
  19.6000          8
  19.6400         14
  19.6800         16
  19.7200          8
  19.7600          6
  19.8000         14
  19.8400          9
  19.8800         13
  19.9200         13
  19.9600         14
  20.0000          9
  20.0400         12
  20.0800          7
  20.1200          7
  20.1600         10
  20.2000          6
  20.2400          7
  20.2800          9
  20.3200          8
  20.3600         12
  20.4000         16
  20.4400         15
  20.4800         13
  20.5200          6
  20.5600         11
  20.6000         11
  20.6400         13
  20.6800         16
  20.7200         13
  20.7600         11
  20.8000         10
  20.8400          9
  20.8800          9
  20.9200          8
  20.9600         11
  21.0000         18
  21.0400         11
  21.0800         10
  21.1200         11
  21.1600         21
  21.2000         10
  21.2400         10
  21.2800         10
  21.3200         13
  21.3600          4
  21.4000          7
  21.4400         11
  21.4800         12
  21.5200         19
  21.5600         14
  21.6000         15
  21.6400         12
  21.6800         15
  21.7200         14
  21.7600         18
  21.8000         17
  21.8400         14
  21.8800         19
  21.9200          8
  21.9600         20
  22.0000          7

File: 0810B_2th_all.uxd
; (content of file \\Mai-b11e5c0abfd\d8\User\55373\0851539\0901\0810B_2th_all.raw)
_FILEVERSION = 2
_SAMPLE =
_+SAMPLE =
_SITE = Taiwan
_USER = Administrator
_GONIOMETER_CODE = 20
_STAGE_CODE = 13
; Goniometer : D8 theta/2theta, stage : Unknown
_SAMPLE_CHANGER_CODE = 0
_ATTACHMENTS_CODE = 0
_GONIOMETER_RADIUS = 300
_FIXED_DIVSLIT = 0.6
_FIXED_SAMPLESLIT = 0
_FIXED_DETSLIT = 0.1
_MONOCHROMATOR = 0
; Incident beam monochromator : None
_THIN_FILM = N
_BETA_FILTER = N
_FIXED_ANTISLIT = 0.6
_ANALYZER_CODE = 0
; Received beam analyzer : None
_DATEMEASURED = "01-Sep-2021 11:37:23"
_WL_UNIT = A
_WL1 = 1.5406
_WL2 = 1.54439
_WL3 = 1.39222
_WLRATIO = 0.5
_ANODE = Cu

; Data for range 1
_DRIVE = COUPLED
_STEPTIME = 0.2
_STEPSIZE = 0.02
_STEPMODE = C
_START = 34
_THETA = 16.3155
_2THETA = 34
_KHI = 0
_PHI = 5.5
_X = 0
_Y = 0
_Z = -0.1794
_DETECTOR = 1
; Detector type : Scintillation counter
_HV = 662
_GAIN = 80
_LLD = 0.545
_ULD = 1.917
_DETECTORSLIT = out
_AUX1 = 0
_AUX2 = 0
_AUX3 = 0
_TIMESTARTED = 16
_TEMP_RATE = -1
_TEMP_DELAY = -1
_KV = 40
_MA = 40
_RANGE_WL = 1.5406
_3DPLANE = 0
_V4_COUNTERS_MASK = 1
_V4_DRIVES_MASK = 0
_V4_ENCODERS_MASK = 0
_2THETACOUNTS = 1
; 2THETA  Cnt1_D1
  34.0000          3
  34.3000          3
  34.6000          2
  34.9000          4
  35.2000          3
  35.5000          4
  35.8000          4
  36.1000          1
  36.4000          3
  36.7000          3
  37.0000          2
  37.3000          2
  37.6000          2
  37.9000          7
  38.2000         21
  38.5000          8
  38.8000          1
  39.1000          5
  39.4000          6
  39.7000          4
  40.0000          3
  40.3000          2
  40.6000          0
  40.9000          0
  41.2000          7
  41.5000          4
  41.8000          2
  42.1000          3
  42.4000          4
  42.7000          4
  43.0000          3
  43.3000          1
  43.6000          3
  43.9000          7
  44.2000          6
  44.5000          3
  44.8000          6
  45.1000          3
  45.4000          2
  45.7000          4
  46.0000          2
  46.3000          1
  46.6000          1
  46.9000          1
  47.2000          1
  47.5000          3
  47.8000          3
  48.1000          3
  48.4000          1
  48.7000          1
  49.0000          2
  49.3000          1
  49.6000          3
  49.9000          2
  50.2000          3
  50.5000          2
  50.8000          1
  51.1000          2
  51.4000          0
  51.7000          3
  52.0000          4
  52.3000          1
  52.6000          1
  52.9000          1
  53.2000          2
  53.5000          1
  53.8000          1
  54.1000          3
  54.4000          0
  54.7000          1
  55.0000          2
  55.3000          3
  55.6000          3
  55.9000          0
  56.2000          5
  56.5000          2
  56.8000          2
  57.1000          5
  57.4000          1
  57.7000          0
  58.0000          1
  58.3000          1
  58.6000          3
  58.9000          4
  59.2000          0
  59.5000          4
  59.8000          0
  60.1000          3
  60.4000          1
  60.7000          4
  61.0000          6
  61.3000          1
  61.6000          3
  61.9000          3
  62.2000          3
  62.5000          5
  62.8000          4
  63.1000          2
  63.4000          3
  63.7000          4
  64.0000          2
  64.3000          1
  64.6000          3
  64.9000          1
  65.2000          1
  65.5000          2
  65.8000          0
  66.1000          3
  66.4000          2
  66.7000          1
  67.0000          1
  67.3000          3
  67.6000          1
  67.9000          0
  68.2000          1
  68.5000          0
  68.8000          1
  69.1000          3
  69.4000          0
  69.7000          1
  70.0000          3
  70.3000          1
  70.6000          3
  70.9000          4
  71.2000          4
  71.5000          1
  71.8000          3
  72.1000          0
  72.4000          3
  72.7000          2
  73.0000          4
  73.3000          1
  73.6000          2
  73.9000          1
  74.2000          1
  74.5000          0
  74.8000          1
  75.1000          3
  75.4000          2
  75.7000          4
  76.0000          1
  76.3000          0
  76.6000          4
  76.9000          2
  77.2000          5
  77.5000          3
  77.8000          4
  78.1000          7
  78.4000          1
  78.7000          2
  79.0000          2
  79.3000          1
  79.6000          3
  79.9000          2
  80.2000          2
  80.5000          1
  80.8000          1
  81.1000          2
  81.4000          1
  81.7000          0
  82.0000          1
  82.3000          1
  82.6000          4
  82.9000          1
  83.2000          1
  83.5000          3
  83.8000          2
  84.1000          1
  84.4000          1
  84.7000          1
  85.0000          1
  85.3000          1
  85.6000          6
  85.9000          1
  86.2000          2
  86.5000          2
  86.8000          2
  87.1000          2
  87.4000          2
  87.7000          4
  88.0000          2
  88.3000          3
  88.6000          1
  88.9000          1
  89.2000          2
  89.5000          2
  89.8000          1
  90.1000          1
  90.4000          2
  90.7000          2
  91.0000          3
  91.3000          1
  91.6000          2
  91.9000          0
  92.2000          1
  92.5000          1
  92.8000          1
  93.1000          3
  93.4000          1
  93.7000          0
  94.0000          1
  94.3000          3
  94.6000          5
  94.9000          3
  95.2000          1
  95.5000          2
  95.8000          1
  96.1000          1
  96.4000          3
  96.7000          2
  97.0000          2
  97.3000          1
  97.6000          2
  97.9000          1
  98.2000          2
  98.5000          4
  98.8000          1
  99.1000          3
  99.4000          7
  99.7000          1
 100.0000          1
 100.3000          2
 100.6000          3
 100.9000          2
 101.2000          1
 101.5000          3
 101.8000          1
 102.1000          2
 102.4000          3
 102.7000          9
 103.0000          3
 103.3000          1
 103.6000          1
 103.9000          6
 104.2000          2
 104.5000          4
 104.8000          2
 105.1000          3
 105.4000          2
 105.7000          4
 106.0000          4
 106.3000          2
 106.6000          2
 106.9000          4
 107.2000          3
 107.5000          0
 107.8000          2
 108.1000          1
 108.4000          4
 108.7000          1
 109.0000          4
 109.3000          1
 109.6000          2
 109.9000          3
 110.2000          2
 110.5000          4
 110.8000          4
 111.1000          6
 111.4000          3
 111.7000          3
 112.0000          4
 112.3000          6
 112.6000          3
 112.9000          6
 113.2000         10
 113.5000         10
 113.8000          9
 114.1000         14
 114.4000         18
 114.7000         14
 115.0000         17
 115.3000         22
 115.6000         19
 115.9000         30
 116.2000         30
 116.5000         39
 116.8000         41
 117.1000         44
 117.4000         56
 117.7000         88
 118.0000         91
 118.3000        146
 118.6000        335
 118.9000        466
 119.2000       1308
 119.5000      66212
 119.8000       3600
 120.1000      13757
 120.4000        739
 120.7000        367
 121.0000        217
 121.3000        153
 121.6000        117
 121.9000        109
 122.0000         93