Folder: find_peak/data (part 2)

File: 0810B_RC_13_23.uxd
; (content of file \\Mai-b11e5c0abfd\d8\User\55373\0851539\0901\0810B_RC_13_23.raw)
_FILEVERSION = 2
_SAMPLE =
_+SAMPLE =
_SITE = Taiwan
_USER = Administrator
_GONIOMETER_CODE = 20
_STAGE_CODE = 13
; Goniometer : D8 theta/2theta, stage : Unknown
_SAMPLE_CHANGER_CODE = 0
_ATTACHMENTS_CODE = 0
_GONIOMETER_RADIUS = 300
_FIXED_DIVSLIT = 0.6
_FIXED_SAMPLESLIT = 0
_FIXED_DETSLIT = 0.1
_MONOCHROMATOR = 0
; Incident beam monochromator : None
_THIN_FILM = N
_BETA_FILTER = N
_FIXED_ANTISLIT = 0.6
_ANALYZER_CODE = 0
; Received beam analyzer : None
_DATEMEASURED = "01-Sep-2021 11:54:04"
_WL_UNIT = A
_WL1 = 1.5406
_WL2 = 1.54439
_WL3 = 1.39222
_WLRATIO = 0.5
_ANODE = Cu

; Data for range 1
_DRIVE = THETA
_STEPTIME = 0.2
_STEPSIZE = 0.02
_STEPMODE = S
_START = 13
_THETA = 13
_2THETA = 38.1992
_KHI = 0
_PHI = 5.5
_X = 0
_Y = 0
_Z = -0.1794
_DETECTOR = 1
; Detector type : Scintillation counter
_HV = 662
_GAIN = 80
_LLD = 0.545
_ULD = 1.917
_DETECTORSLIT = out
_AUX1 = 0
_AUX2 = 0
_AUX3 = 0
_TIMESTARTED = 17
_TEMP_RATE = -1
_TEMP_DELAY = -1
_KV = 40
_MA = 40
_RANGE_WL = 1.5406
_3DPLANE = 0
_V4_COUNTERS_MASK = 1
_V4_DRIVES_MASK = 0
_V4_ENCODERS_MASK = 0
_2THETACOUNTS = 1
; THETA  Cnt1_D1
  13.0000         15
  13.0400         11
  13.0800         10
  13.1200          8
  13.1600         14
  13.2000         12
  13.2400         15
  13.2800         11
  13.3200         12
  13.3600         13
  13.4000         12
  13.4400         11
  13.4800          8
  13.5200         16
  13.5600         17
  13.6000         11
  13.6400         12
  13.6800         13
  13.7200          9
  13.7600          7
  13.8000          6
  13.8400          9
  13.8800         11
  13.9200          9
  13.9600         10
  14.0000         11
  14.0400         18
  14.0800         17
  14.1200          6
  14.1600          6
  14.2000          8
  14.2400         10
  14.2800         11
  14.3200         14
  14.3600         12
  14.4000          7
  14.4400         15
  14.4800         14
  14.5200         18
  14.5600         15
  14.6000          6
  14.6400         11
  14.6800          9
  14.7200         13
  14.7600         13
  14.8000         11
  14.8400          8
  14.8800         15
  14.9200          8
  14.9600          9
  15.0000         11
  15.0400         12
  15.0800         14
  15.1200         11
  15.1600          9
  15.2000         15
  15.2400          2
  15.2800         14
  15.3200         10
  15.3600         13
  15.4000         13
  15.4400          9
  15.4800         10
  15.5200         10
  15.5600         12
  15.6000         13
  15.6400          5
  15.6800          8
  15.7200          8
  15.7600         12
  15.8000         10
  15.8400         14
  15.8800          8
  15.9200         12
  15.9600         13
  16.0000          9
  16.0400         12
  16.0800         12
  16.1200         14
  16.1600         12
  16.2000          8
  16.2400          7
  16.2800         13
  16.3200         14
  16.3600         11
  16.4000          7
  16.4400         18
  16.4800         12
  16.5200         12
  16.5600         11
  16.6000          9
  16.6400         12
  16.6800         16
  16.7200         11
  16.7600         14
  16.8000         15
  16.8400         10
  16.8800         17
  16.9200          9
  16.9600          6
  17.0000         14
  17.0400         15
  17.0800          8
  17.1200         13
  17.1600          7
  17.2000          9
  17.2400         10
  17.2800         13
  17.3200         12
  17.3600          9
  17.4000         10
  17.4400         17
  17.4800         10
  17.5200          8
  17.5600         15
  17.6000          7
  17.6400         15
  17.6800         12
  17.7200          8
  17.7600         14
  17.8000          8
  17.8400         13
  17.8800         12
  17.9200         14
  17.9600          9
  18.0000         12
  18.0400         17
  18.0800         11
  18.1200         11
  18.1600         15
  18.2000          7
  18.2400         17
  18.2800          6
  18.3200         12
  18.3600         10
  18.4000         18
  18.4400          7
  18.4800         12
  18.5200         18
  18.5600         12
  18.6000          8
  18.6400         11
  18.6800          9
  18.7200         14
  18.7600          8
  18.8000          7
  18.8400          7
  18.8800         13
  18.9200         14
  18.9600          7
  19.0000         18
  19.0400         19
  19.0800         16
  19.1200         11
  19.1600         14
  19.2000         10
  19.2400         13
  19.2800         10
  19.3200         13
  19.3600          3
  19.4000         17
  19.4400         12
  19.4800          7
  19.5200          9
  19.5600         11
  19.6000         15
  19.6400         11
  19.6800         15
  19.7200          8
  19.7600         15
  19.8000          9
  19.8400          8
  19.8800          4
  19.9200         13
  19.9600          6
  20.0000          6
  20.0400         10
  20.0800         15
  20.1200         14
  20.1600          9
  20.2000         15
  20.2400          7
  20.2800         11
  20.3200         15
  20.3600         13
  20.4000          9
  20.4400         14
  20.4800         12
  20.5200         12
  20.5600          8
  20.6000         10
  20.6400         13
  20.6800         10
  20.7200         16
  20.7600         12
  20.8000          4
  20.8400          7
  20.8800         11
  20.9200         10
  20.9600          8
  21.0000         20
  21.0400          9
  21.0800         14
  21.1200          8
  21.1600         11
  21.2000         11
  21.2400         11
  21.2800          7
  21.3200         13
  21.3600         11
  21.4000         12
  21.4400         10
  21.4800          8
  21.5200         10
  21.5600         10
  21.6000         24
  21.6400          9
  21.6800         12
  21.7200          8
  21.7600         16
  21.8000         16
  21.8400          7
  21.8800         16
  21.9200         13
  21.9600         18
  22.0000         12
  22.0400         17
  22.0800         13
  22.1200         10
  22.1600          7
  22.2000          8
  22.2400         14
  22.2800         10
  22.3200         10
  22.3600         12
  22.4000          5
  22.4400         11
  22.4800         13
  22.5200         10
  22.5600         12
  22.6000          9
  22.6400          8
  22.6800         12
  22.7200          7
  22.7600         11
  22.8000          5
  22.8400         14
  22.8800          6
  22.9200         12
  22.9600          8
  23.0000         12

File: 0811A_2th_all.uxd
; (content of file \\Mai-b11e5c0abfd\d8\User\55373\0851539\0831\0811\0811A_2th_1.raw)
_FILEVERSION = 2
_SAMPLE =
_+SAMPLE =
_SITE = Taiwan
_USER = Administrator
_GONIOMETER_CODE = 20
_STAGE_CODE = 13
; Goniometer : D8 theta/2theta, stage : Unknown
_SAMPLE_CHANGER_CODE = 0
_ATTACHMENTS_CODE = 0
_GONIOMETER_RADIUS = 300
_FIXED_DIVSLIT = 0.6
_FIXED_SAMPLESLIT = 0
_FIXED_DETSLIT = 0.1
_MONOCHROMATOR = 0
; Incident beam monochromator : None
_THIN_FILM = N
_BETA_FILTER = N
_FIXED_ANTISLIT = 0.6
_ANALYZER_CODE = 0
; Received beam analyzer : None
_DATEMEASURED = "31-Aug-2021 19:26:54"
_WL_UNIT = A
_WL1 = 1.5406
_WL2 = 1.54439
_WL3 = 1.39222
_WLRATIO = 0.5
_ANODE = Cu

; Data for range 1
_DRIVE = COUPLED
_STEPTIME = 0.2
_STEPSIZE = 0.02
_STEPMODE = C
_START = 34
_THETA = 17
_2THETA = 34
_KHI = 0
_PHI = -177
_X = 0
_Y = 0
_Z = -0.0713
_DETECTOR = 1
; Detector type : Scintillation counter
_HV = 662
_GAIN = 80
_LLD = 0.545
_ULD = 1.917
_DETECTORSLIT = out
_AUX1 = 0
_AUX2 = 0
_AUX3 = 0
_TIMESTARTED = 16
_TEMP_RATE = -1
_TEMP_DELAY = -1
_KV = 40
_MA = 40
_RANGE_WL = 1.5406
_3DPLANE = 0
_V4_COUNTERS_MASK = 1
_V4_DRIVES_MASK = 0
_V4_ENCODERS_MASK = 0
_2THETACOUNTS = 1
; 2THETA  Cnt1_D1
  34.0000          4
  34.3000          4
  34.6000          3
  34.9000          1
  35.2000          4
  35.5000          5
  35.8000          2
  36.1000          2
  36.4000          2
  36.7000          0
  37.0000          2
  37.3000          3
  37.6000          3
  37.9000          5
  38.2000         23
  38.5000         11
  38.8000          2
  39.1000          4
  39.4000          1
  39.7000          3
  40.0000          2
  40.3000          6
  40.6000          5
  40.9000          2
  41.2000          5
  41.5000          9
  41.8000          4
  42.1000          7
  42.4000          6
  42.7000          2
  43.0000          4
  43.3000          4
  43.6000          4
  43.9000          3
  44.2000         11
  44.5000          3
  44.8000          2
  45.1000          3
  45.4000          6
  45.7000          2
  46.0000          3
  46.3000          5
  46.6000          4
  46.9000          4
  47.2000          6
  47.5000          2
  47.8000          2
  48.1000          3
  48.4000          3
  48.7000          1
  49.0000          4
  49.3000          4
  49.6000          3
  49.9000          5
  50.2000          2
  50.5000          5
  50.8000          1
  51.1000          0
  51.4000          0
  51.7000          1
  52.0000          3
  52.3000          5
  52.6000          2
  52.9000          4
  53.2000          4
  53.5000          0
  53.8000          4
  54.1000          2
  54.4000          2
  54.7000          4
  55.0000          2
  55.3000          3
  55.6000          5
  55.9000          2
  56.2000          2
  56.5000          4
  56.8000          1
  57.1000          4
  57.4000          2
  57.7000          1
  58.0000          3
  58.3000          2
  58.6000          3
  58.9000          2
  59.2000          4
  59.5000          1
  59.8000          4
  60.1000          0
  60.4000          2
  60.7000          2
  61.0000          0
  61.3000          1
  61.6000          2
  61.9000          2
  62.2000          3
  62.5000          1
  62.8000          2
  63.1000          2
  63.4000          6
  63.7000          2
  64.0000          1
  64.3000          7
  64.6000          1
  64.9000          1
  65.2000          2
  65.5000          1
  65.8000          2
  66.1000          3
  66.4000          2
  66.7000          4
  67.0000          1
  67.3000          1
  67.6000          1
  67.9000          2
  68.2000          2
  68.5000          3
  68.8000          2
  69.1000          3
  69.4000          1
  69.7000          4
  70.0000          2
  70.3000          0
  70.6000          6
  70.9000          1
  71.2000          2
  71.5000          4
  71.8000          2
  72.1000          1
  72.4000          0
  72.7000          3
  73.0000          2
  73.3000          0
  73.6000          1
  73.9000          4
  74.2000          0
  74.5000          0
  74.8000          1
  75.1000          4
  75.4000          1
  75.7000          5
  76.0000          2
  76.3000          2
  76.6000          3
  76.9000          2
  77.2000          3
  77.5000          5
  77.8000          1
  78.1000          5
  78.4000          2
  78.7000          3
  79.0000          4
  79.3000          1
  79.6000          3
  79.9000          1
  80.2000          1
  80.5000          2
  80.8000          3
  81.1000          4
  81.4000          4
  81.7000          3
  82.0000          4
  82.3000          4
  82.6000          2
  82.9000          3
  83.2000          3
  83.5000          1
  83.8000          4
  84.1000          3
  84.4000          2
  84.7000          2
  85.0000          2
  85.3000          1
  85.6000          0
  85.9000          3
  86.2000          3
  86.5000          3
  86.8000          2
  87.1000          4
  87.4000          2
  87.7000          0
  88.0000          2
  88.3000          1
  88.6000          5
  88.9000          1
  89.2000          2
  89.5000          2
  89.8000          1
  90.1000          5
  90.4000          1
  90.7000          1
  91.0000          1
  91.3000          0
  91.6000          2
  91.9000          2
  92.2000          0
  92.5000          3
  92.8000          1
  93.1000          1
  93.4000          1
  93.7000          3
  94.0000          0
  94.3000          0
  94.6000          0
  94.9000          4
  95.2000          2
  95.5000          2
  95.8000          1
  96.1000          1
  96.4000          3
  96.7000          2
  97.0000          2
  97.3000          1
  97.6000          1
  97.9000          3
  98.2000          0
  98.5000          4
  98.8000          3
  99.1000          3
  99.4000          1
  99.7000          3
 100.0000          2
 100.3000          2
 100.6000          1
 100.9000          3
 101.2000          5
 101.5000          6
 101.8000          0
 102.1000          4
 102.4000          5
 102.7000         12
 103.0000          2
 103.3000          0
 103.6000          6
 103.9000          1
 104.2000          2
 104.5000          2
 104.8000          3
 105.1000          5
 105.4000          2
 105.7000          2
 106.0000          0
 106.3000          3
 106.6000          6
 106.9000          1
 107.2000          0
 107.5000          6
 107.8000          4
 108.1000          5
 108.4000          0
 108.7000          4
 109.0000          2
 109.3000          3
 109.6000          1
 109.9000          2
 110.2000          2
 110.5000          3
 110.8000          8
 111.1000          7
 111.4000          5
 111.7000          4
 112.0000          3
 112.3000          5
 112.6000          6
 112.9000          5
 113.2000         23
 113.5000         23
 113.8000         26
 114.1000         18
 114.4000         17
 114.7000         27
 115.0000         31
 115.3000         39
 115.6000         60
 115.9000         55
 116.2000         59
 116.5000         89
 116.8000         78
 117.1000         96
 117.4000        123
 117.7000        154
 118.0000        200
 118.3000        283
 118.6000        795
 118.9000       1070
 119.2000       2693
 119.5000     129450
 119.8000       7288
 120.1000      34554
 120.4000       1781
 120.7000        766
 121.0000        472
 121.3000        327
 121.6000        258
 121.9000        215
 122.0000        196

File: 0811A_RC_15_25.uxd
; (content of file \\Mai-b11e5c0abfd\d8\User\55373\0851539\0831\0811\0811A_RC_38_1.raw)
_FILEVERSION = 2
_SAMPLE =
_+SAMPLE =
_SITE = Taiwan
_USER = Administrator
_GONIOMETER_CODE = 20
_STAGE_CODE = 13
; Goniometer : D8 theta/2theta, stage : Unknown
_SAMPLE_CHANGER_CODE = 0
_ATTACHMENTS_CODE = 0
_GONIOMETER_RADIUS = 300
_FIXED_DIVSLIT = 0.6
_FIXED_SAMPLESLIT = 0
_FIXED_DETSLIT = 0.1
_MONOCHROMATOR = 0
; Incident beam monochromator : None
_THIN_FILM = N
_BETA_FILTER = N
_FIXED_ANTISLIT = 0.6
_ANALYZER_CODE = 0
; Received beam analyzer : None
_DATEMEASURED = "31-Aug-2021 19:42:50"
_WL_UNIT = A
_WL1 = 1.5406
_WL2 = 1.54439
_WL3 = 1.39222
_WLRATIO = 0.5
_ANODE = Cu

; Data for range 1
_DRIVE = THETA
_STEPTIME = 0.2
_STEPSIZE = 0.02
_STEPMODE = S
_START = 15
_THETA = 15
_2THETA = 38.2033
_KHI = 0
_PHI = -177
_X = 0
_Y = 0
_Z = -0.0713
_DETECTOR = 1
; Detector type : Scintillation counter
_HV = 662
_GAIN = 80
_LLD = 0.545
_ULD = 1.917
_DETECTORSLIT = out
_AUX1 = 0
_AUX2 = 0
_AUX3 = 0
_TIMESTARTED = 17
_TEMP_RATE = -1
_TEMP_DELAY = -1
_KV = 40
_MA = 40
_RANGE_WL = 1.5406
_3DPLANE = 0
_V4_COUNTERS_MASK = 1
_V4_DRIVES_MASK = 0
_V4_ENCODERS_MASK = 0
_2THETACOUNTS = 1
; THETA  Cnt1_D1
  15.0000         13
  15.0400          9
  15.0800         11
  15.1200         15
  15.1600         14
  15.2000         14
  15.2400         20
  15.2800         20
  15.3200         14
  15.3600         11
  15.4000         12
  15.4400         12
  15.4800         14
  15.5200         22
  15.5600         18
  15.6000         21
  15.6400         18
  15.6800         21
  15.7200         15
  15.7600         16
  15.8000          9
  15.8400         14
  15.8800         13
  15.9200         15
  15.9600         13
  16.0000         15
  16.0400         12
  16.0800         14
  16.1200         13
  16.1600         11
  16.2000         12
  16.2400         14
  16.2800         22
  16.3200         12
  16.3600         13
  16.4000         22
  16.4400         27
  16.4800         16
  16.5200         17
  16.5600          6
  16.6000         24
  16.6400         12
  16.6800         13
  16.7200         30
  16.7600         27
  16.8000         16
  16.8400         18
  16.8800         14
  16.9200         12
  16.9600         19
  17.0000         11
  17.0400         13
  17.0800         15
  17.1200         18
  17.1600         17
  17.2000         19
  17.2400         22
  17.2800         17
  17.3200         14
  17.3600         10
  17.4000         18
  17.4400         16
  17.4800         13
  17.5200         20
  17.5600         14
  17.6000         20
  17.6400          9
  17.6800         16
  17.7200         18
  17.7600         10
  17.8000         20
  17.8400         20
  17.8800         15
  17.9200         16
  17.9600         13
  18.0000         17
  18.0400         12
  18.0800         14
  18.1200         16
  18.1600         16
  18.2000         15
  18.2400         13
  18.2800         11
  18.3200         18
  18.3600         11
  18.4000         17
  18.4400         19
  18.4800         22
  18.5200         11
  18.5600         17
  18.6000         15
  18.6400         16
  18.6800         18
  18.7200         14
  18.7600         14
  18.8000         15
  18.8400         21
  18.8800         22
  18.9200         11
  18.9600         15
  19.0000         16
  19.0400         12
  19.0800         14
  19.1200         16
  19.1600         17
  19.2000         12
  19.2400         17
  19.2800         16
  19.3200         21
  19.3600         16
  19.4000         22
  19.4400         13
  19.4800         21
  19.5200         22
  19.5600         20
  19.6000         20
  19.6400         14
  19.6800         12
  19.7200         16
  19.7600         14
  19.8000         15
  19.8400         16
  19.8800         16
  19.9200         12
  19.9600         16
  20.0000         13
  20.0400         16
  20.0800         19
  20.1200         15
  20.1600         13
  20.2000         12
  20.2400         11
  20.2800         15
  20.3200         13
  20.3600         17
  20.4000         10
  20.4400         16
  20.4800         18
  20.5200         16
  20.5600         14
  20.6000         11
  20.6400         12
  20.6800         17
  20.7200         10
  20.7600         19
  20.8000         13
  20.8400         12
  20.8800         18
  20.9200         16
  20.9600         19
  21.0000         19
  21.0400         14
  21.0800         15
  21.1200         15
  21.1600          8
  21.2000         24
  21.2400         14
  21.2800         16
  21.3200          9
  21.3600         19
  21.4000         13
  21.4400         16
  21.4800          9
  21.5200         14
  21.5600         14
  21.6000         16
  21.6400         13
  21.6800         17
  21.7200         11
  21.7600         19
  21.8000         14
  21.8400         17
  21.8800         17
  21.9200         15
  21.9600         21
  22.0000         31
  22.0400         23
  22.0800         15
  22.1200          8
  22.1600         13
  22.2000         22
  22.2400         17
  22.2800         20
  22.3200         17
  22.3600         14
  22.4000         19
  22.4400         16
  22.4800         25
  22.5200         12
  22.5600         13
  22.6000         12
  22.6400         24
  22.6800         16
  22.7200         14
  22.7600         14
  22.8000         16
  22.8400         17
  22.8800         17
  22.9200         16
  22.9600         19
  23.0000         12